{
  "resourceType": "Bundle",
  "id": "tests-numer-EXM190-IPCOnICUStart - Copy-bundle",
  "type": "transaction",
  "entry": [ {
    "resource": {
      "resourceType": "Bundle",
      "id": "numer-EXM190-IPCOnICUStart - Copy-bundle",
      "type": "collection",
      "entry": [ {
        "fullUrl": "http://clinfhir.com/fhir/Patient/numer-EXM190-IPCOnICUStart",
        "resource": {
          "resourceType": "Patient",
          "id": "numer-EXM190-IPCOnICUStart",
          "extension": [ {
            "url": "http://hl7.org/fhir/us/core/StructureDefinition/us-core-race",
            "extension": [ {
              "url": "ombCategory",
              "valueCoding": {
                "system": "urn:oid:2.16.840.1.113883.6.238",
                "code": "1002-5",
                "display": "American Indian or Alaska Native",
                "userSelected": true
              }
            }, {
              "url": "text",
              "valueString": "American Indian or Alaska Native"
            } ]
          }, {
            "url": "http://hl7.org/fhir/us/core/StructureDefinition/us-core-ethnicity",
            "extension": [ {
              "url": "ombCategory",
              "valueCoding": {
                "system": "urn:oid:2.16.840.1.113883.6.238",
                "code": "2135-2",
                "display": "Hispanic or Latino",
                "userSelected": true
              }
            }, {
              "url": "text",
              "valueString": "Hispanic or Latino"
            } ]
          } ],
          "identifier": [ {
            "type": {
              "coding": [ {
                "system": "http://terminology.hl7.org/CodeSystem/v2-0203",
                "code": "MR"
              } ]
            },
            "value": "2a65a26f9f7578ed1148174b365eff5a"
          } ],
          "active": true,
          "name": [ {
            "use": "usual",
            "family": "NUMERPass",
            "given": [ "IPCOnICUStart" ]
          } ],
          "gender": "female",
          "birthDate": "1974-03-03"
        }
      }, {
        "fullUrl": "http://clinfhir.com/fhir/Procedure/numer-EXM190-IPCOnICUStart-53",
        "resource": {
          "resourceType": "Procedure",
          "id": "numer-EXM190-IPCOnICUStart-53",
          "status": "completed",
          "code": {
            "coding": [ {
              "system": "http://snomed.info/sct",
              "code": "360030002"
            } ]
          },
          "subject": {
            "reference": "Patient/numer-EXM190-IPCOnICUStart"
          },
          "performedDateTime": "2019-12-06T08:00:00.000+00:00",
          "usedCode": [ {
            "coding": [ {
              "system": "http://snomed.info/sct",
              "version": "2020",
              "code": "428411000124104"
            } ]
          } ]
        }
      }, {
        "fullUrl": "http://clinfhir.com/fhir/Condition/numer-EXM190-IPCOnICUStart-54",
        "resource": {
          "resourceType": "Condition",
          "id": "numer-EXM190-IPCOnICUStart-54",
          "subject": {
            "reference": "Patient/numer-EXM190-IPCOnICUStart"
          }
        }
      }, {
        "fullUrl": "http://clinfhir.com/fhir/Location/numer-EXM190-IPCOnICUStart-57",
        "resource": {
          "resourceType": "Location",
          "id": "numer-EXM190-IPCOnICUStart-57",
          "type": [ {
            "coding": [ {
              "system": "http://terminology.hl7.org/CodeSystem/hsloc",
              "version": "2022",
              "code": "1025-6",
              "display": "Trauma Critical Care",
              "userSelected": true
            } ]
          } ],
          "partOf": {
            "reference": "Location/numer-EXM190-IPCOnICUStart-58"
          }
        }
      }, {
        "fullUrl": "http://clinfhir.com/fhir/Location/numer-EXM190-IPCOnICUStart-58",
        "resource": {
          "resourceType": "Location",
          "id": "numer-EXM190-IPCOnICUStart-58",
          "type": [ {
            "coding": [ {
              "system": "http://terminology.hl7.org/CodeSystem/v3-RoleCode",
              "code": "ETU",
              "display": "Emergency trauma unit"
            } ]
          } ]
        }
      }, {
        "fullUrl": "http://clinfhir.com/fhir/Encounter/numer-EXM190-IPCOnICUStart-610",
        "resource": {
          "resourceType": "Encounter",
          "id": "numer-EXM190-IPCOnICUStart-610",
          "status": "finished",
          "class": {
            "system": "http://terminology.hl7.org/CodeSystem/v3-ActCode",
            "code": "IMP",
            "display": "inpatient encounter",
            "userSelected": true
          },
          "type": [ {
            "coding": [ {
              "system": "http://snomed.info/sct",
              "code": "8715000"
            } ]
          } ],
          "subject": {
            "reference": "Patient/numer-EXM190-IPCOnICUStart"
          },
          "period": {
            "start": "2019-12-04T08:00:00+00:00",
            "end": "2019-12-30T08:15:00+00:00"
          },
          "length": {
            "value": 26,
            "unit": "days"
          },
          "diagnosis": [ {
            "condition": {
              "reference": "Condition/numer-EXM190-IPCOnICUStart-54"
            },
            "use": {
              "coding": [ {
                "system": "http://snomed.info/sct",
                "code": "111297002",
                "display": "Ischemic Stroke"
              } ]
            },
            "rank": 1
          } ],
          "location": [ {
            "location": {
              "reference": "Location/numer-EXM190-IPCOnICUStart-57"
            },
            "status": "completed",
            "period": {
              "start": "2019-12-06T08:00:00.000+00:00",
              "end": "2019-12-08T08:15:00.000+00:00"
            }
          } ]
        }
      } ]
    },
    "request": {
      "method": "PUT",
      "url": "Bundle/numer-EXM190-IPCOnICUStart - Copy-bundle"
    }
  } ]
}