{
  "resourceType": "Bundle",
  "id": "tests-numer-EXM871-bundle",
  "type": "transaction",
  "entry": [ {
    "resource": {
      "resourceType": "Encounter",
      "id": "numer-EXM871-InPatient-Encounter",
      "text": {
        "status": "generated"
      },
      "status": "finished",
      "class": {
        "system": "http://terminology.hl7.org/CodeSystem/v3-ActCode",
        "code": "IMP",
        "display": "inpatient encounter"
      },
      "type": [ {
        "coding": [ {
          "system": "http://snomed.info/sct",
          "version": "2020-09",
          "code": "32485007",
          "display": "Hospital admission (procedure)"
        } ],
        "text": "Inpatient Admission"
      } ],
      "subject": {
        "reference": "Patient/numer-EXM871"
      },
      "period": {
        "start": "2022-07-11T08:00:00",
        "end": "2022-07-18T08:15:00"
      },
      "diagnosis": [ {
        "condition": {
          "display": "Cardiac arrest as a complication of care (disorder)"
        },
        "use": {
          "coding": [ {
            "system": "2.16.840.1.113883.6.96",
            "code": "213213007",
            "display": "Cardiopulmonary arrest"
          } ]
        }
      } ],
      "hospitalization": {
        "dischargeDisposition": {
          "coding": [ {
            "system": "http://snomed.info/sct",
            "code": "428361000124107",
            "display": "Discharge to home for hospice care (procedure)"
          } ]
        }
      }
    },
    "request": {
      "method": "PUT",
      "url": "Encounter/numer-EXM871-InPatient-Encounter"
    }
  }, {
    "resource": {
      "resourceType": "Encounter",
      "id": "numer-EXM871-Encounter",
      "text": {
        "status": "generated"
      },
      "status": "finished",
      "type": [ {
        "coding": [ {
          "system": "http://www.ama-assn.org/go/cpt",
          "code": "99202",
          "display": "Office or other outpatient visit for the evaluation and management of a new patient, which requires a medically appropriate history and/or examination and straightforward medical decision making. When using time for code selection, 15-29 minutes of total time is spent on the date of the encounter."
        } ],
        "text": "Office Visit"
      } ],
      "subject": {
        "reference": "Patient/numer-EXM871"
      },
      "period": {
        "start": "2022-01-16T08:30:00",
        "end": "2022-01-20T08:30:00"
      }
    },
    "request": {
      "method": "PUT",
      "url": "Encounter/numer-EXM871-Encounter"
    }
  }, {
    "resource": {
      "resourceType": "Condition",
      "id": "numer-EXM871-Condition",
      "clinicalStatus": {
        "coding": [ {
          "system": "http://terminology.hl7.org/CodeSystem/condition-clinical",
          "code": "active",
          "display": "Active"
        } ],
        "text": "Active"
      },
      "verificationStatus": {
        "coding": [ {
          "system": "http://terminology.hl7.org/CodeSystem/condition-ver-status",
          "code": "confirmed",
          "display": "confirmed"
        } ],
        "text": "confirmed"
      },
      "code": {
        "coding": [ {
          "system": "http://hl7.org/fhir/sid/icd-10-cm",
          "code": "E11.3412",
          "display": "Type 1 diabetes mellitus with severe nonproliferative diabetic retinopathy with macular edema, left eye"
        } ],
        "text": "Type 1 diabetes"
      },
      "subject": {
        "reference": "Patient/numer-EXM871"
      },
      "encounter": {
        "reference": "Encounter/numer-EXM871-Encounter"
      },
      "onsetPeriod": {
        "start": "2019-11-19T06:00:00"
      }
    },
    "request": {
      "method": "PUT",
      "url": "Condition/numer-EXM871-Condition"
    }
  }, {
    "resource": {
      "resourceType": "Patient",
      "id": "numer-EXM871",
      "meta": {
        "profile": [ "http://hl7.org/fhir/us/core/StructureDefinition/us-core-patient" ]
      },
      "text": {
        "status": "extensions"
      },
      "extension": [ {
        "url": "http://hl7.org/fhir/us/core/StructureDefinition/us-core-race",
        "extension": [ {
          "url": "ombCategory",
          "valueCoding": {
            "system": "urn:oid:2.16.840.1.113883.6.238",
            "code": "2106-3",
            "display": "White"
          }
        } ]
      }, {
        "url": "http://hl7.org/fhir/us/core/StructureDefinition/us-core-ethnicity",
        "extension": [ {
          "url": "ombCategory",
          "valueCoding": {
            "system": "urn:oid:2.16.840.1.113883.6.238",
            "code": "2186-5",
            "display": "Not Hispanic or Latino"
          }
        } ]
      } ],
      "active": true,
      "name": [ {
        "use": "official",
        "text": "Phil Hyper_Num",
        "family": "Hyper_Num",
        "given": [ "Phil" ]
      } ],
      "gender": "male",
      "birthDate": "1961-07-31"
    },
    "request": {
      "method": "PUT",
      "url": "Patient/numer-EXM871"
    }
  }, {
    "resource": {
      "resourceType": "Observation",
      "id": "numer-EXM871-Observation",
      "meta": {
        "profile": [ "http://hl7.org/fhir/observation" ]
      },
      "status": "final",
      "category": [ {
        "coding": [ {
          "system": "http://terminology.hl7.org/CodeSystem/observation-category",
          "code": "laboratory",
          "display": "Laboratory"
        } ]
      } ],
      "code": {
        "coding": [ {
          "system": "http://loinc.org",
          "version": "2.69",
          "code": "2339-0",
          "display": "Glucose [Mass/volume] in Blood"
        } ]
      },
      "subject": {
        "reference": "Patient/numer-EXM871"
      },
      "effectiveDateTime": "2022-07-13T08:00:00",
      "valueQuantity": {
        "value": 301,
        "unit": "mg/dL",
        "system": "http://unitsofmeasure.org",
        "code": "mg/dL"
      }
    },
    "request": {
      "method": "PUT",
      "url": "Observation/numer-EXM871-Observation"
    }
  }, {
    "resource": {
      "resourceType": "Observation",
      "id": "numer-EXM871-Observation-1",
      "meta": {
        "profile": [ "http://hl7.org/fhir/observation" ]
      },
      "status": "final",
      "category": [ {
        "coding": [ {
          "system": "http://terminology.hl7.org/CodeSystem/observation-category",
          "code": "laboratory",
          "display": "Laboratory"
        } ]
      } ],
      "code": {
        "coding": [ {
          "system": "http://loinc.org",
          "version": "2.69",
          "code": "2340-8",
          "display": "Glucose [Mass/volume] in Blood by Automated test strip"
        } ]
      },
      "subject": {
        "reference": "Patient/numer-EXM871"
      },
      "effectiveDateTime": "2022-07-14T08:00:00",
      "valueQuantity": {
        "value": 200,
        "unit": "mg/dL",
        "system": "http://unitsofmeasure.org",
        "code": "mg/dL"
      }
    },
    "request": {
      "method": "PUT",
      "url": "Observation/numer-EXM871-Observation-1"
    }
  }, {
    "resource": {
      "resourceType": "Observation",
      "id": "numer-EXM871-Observation-2",
      "meta": {
        "profile": [ "http://hl7.org/fhir/observation" ]
      },
      "status": "final",
      "category": [ {
        "coding": [ {
          "system": "http://terminology.hl7.org/CodeSystem/observation-category",
          "code": "laboratory",
          "display": "Laboratory"
        } ]
      } ],
      "code": {
        "coding": [ {
          "system": "http://loinc.org",
          "version": "2.69",
          "code": "2340-8",
          "display": "Glucose [Mass/volume] in Blood by Automated test strip"
        } ]
      },
      "subject": {
        "reference": "Patient/numer-EXM871"
      },
      "effectiveDateTime": "2022-07-15T08:00:00",
      "valueQuantity": {
        "value": 201,
        "unit": "mg/dL",
        "system": "http://unitsofmeasure.org",
        "code": "mg/dL"
      }
    },
    "request": {
      "method": "PUT",
      "url": "Observation/numer-EXM871-Observation-2"
    }
  } ]
}