{
	"resourceType": "Bundle",
	"type": "collection",
	"entry": [
		{
			"fullUrl": "http://clinfhir.com/fhir/Patient/numer-EXM190-IPCOnICUStart",
			"resource": {
				"resourceType": "Patient",
				"id": "numer-EXM104-AntithromboticTMeqIPAdmTM",
				"active": true,
				"birthDate": "1990-05-31",
				"extension": [
					{
						"extension": [
							{
								"url": "ombCategory",
								"valueCoding": {
									"code": "1002-5",
									"system": "urn:oid:2.16.840.1.113883.6.238",
									"display": "American Indian or Alaska Native",
									"userSelected": true
								}
							},
							{
								"url": "text",
								"valueString": "American Indian or Alaska Native"
							}
						],
						"url": "http://hl7.org/fhir/us/core/StructureDefinition/us-core-race"
					},
					{
						"extension": [
							{
								"url": "ombCategory",
								"valueCoding": {
									"code": "2135-2",
									"system": "urn:oid:2.16.840.1.113883.6.238",
									"display": "Hispanic or Latino",
									"userSelected": true
								}
							},
							{
								"url": "text",
								"valueString": "Hispanic or Latino"
							}
						],
						"url": "http://hl7.org/fhir/us/core/StructureDefinition/us-core-ethnicity"
					}
				],
				"gender": "male",
				"identifier": [
					{
						"type": {
							"coding": [
								{
									"code": "MR",
									"system": "http://terminology.hl7.org/CodeSystem/v2-0203"
								}
							]
						},
						"value": "2a65a26f9f7578ed1148174b365eff5a"
					}
				],
				"name": [
					{
						"family": "NUMERPass",
						"given": [
							"numer-EXM104-AntithromboticTMeqIPAdmTM"
						],
						"use": "usual"
					}
				]
			}
		},
		{
			"fullUrl": "http://clinfhir.com/fhir/Condition/ischemic-stroke-7f36",
			"resource": {
				"code": {
				  "coding": [
					{
					  "code": "111297002",
					  "display": "Nonparalytic stroke (disorder)",
					  "system": "http://snomed.info/sct",
					  "userSelected": true,
					  "version": "2020-09"
					}
				  ]
				},
				"subject": {
			    	"reference": "Patient/numer-EXM104-AntithromboticTMeqIPAdmTM"
			    },
				"id": "ischemic-stroke-7f36",
				"recordedDate": "2022-07-15T08:00:00.000+00:00",
				"resourceType": "Condition"
			}	
		},
		{
			"fullUrl": "http://clinfhir.com/fhir/Location/numer-EXM104-AntithromboticTMeqIPAdmTM-medReq",
			"resource": {
				"authoredOn": "2022-06-15T09:30:00.000+00:00",
				"category": [
				  {
					"coding": [
					  {
						"code": "discharge",
						"display": "Discharge",
						"system": "http://terminology.hl7.org/CodeSystem/medicationrequest-category",
						"userSelected": true
					  }
					]
				  }
				],
				"id": "numer-EXM104-AntithromboticTMeqIPAdmTM-MedReq",
				"intent": "order",
				"medicationCodeableConcept": {
				  "coding": [
					{
					  "code": "1037045",
					  "system": "http://www.nlm.nih.gov/research/umls/rxnorm"
					}
				  ]
				},
				"resourceType": "MedicationRequest",
				"status": "active",
				"subject": {
				  "reference": "Patient/numer-EXM104-AntithromboticTMeqIPAdmTM"
				}
			}
		},
		{
			"fullUrl": "http://clinfhir.com/fhir/Encounter/numer-EXM104-AntithromboticTMeqIPAdmTM-610",
			"resource": {
				"resourceType": "Encounter",
				"id": "numer-EXM104-AntithromboticTMeqIPAdmTM-610",
				"subject": {
					"reference": "Patient/numer-EXM104-AntithromboticTMeqIPAdmTM"
				},
				"diagnosis": [
					{
						"rank": 1,
						"use": {
							"coding": [
								{
									"code": "111297002",
									"system": "http://snomed.info/sct",
									"display": "Ischemic Stroke"
								}
							]
						},
						"condition": {
							"reference": "Condition/ischemic-stroke-7f36"
						}
					}
				],
				"class": {
					"code": "IMP",
					"system": "http://terminology.hl7.org/CodeSystem/v3-ActCode",
					"display": "inpatient encounter",
					"userSelected": true
				},
				"status": "finished",
				"type": [
					{
						"coding": [
							{
								"code": "32485007",
								"system": "http://snomed.info/sct"
							}
						]
					}
				],
				"period": {
					"start": "2022-06-15T09:30:00.000+00:00",
					"end": "2022-10-12T10:30:00.000+00:00"
				},
				"length": {
					"value": 119,
					"unit": "days"
				}
			}
		}
	]
}