{
	"resourceType": "Bundle",
	"type": "collection",
	"entry": [
		{
			"fullUrl": "http://clinfhir.com/fhir/Patient/denexcep-EXM72-ContrRcvDayAfterIPstart",
			"resource": {
				"resourceType": "Patient",
				"id": "denexcep-EXM72-ContrRcvDayAfterIPstart",
				"active": true,
				"birthDate": "1975-09-26",
				"extension": [
					{
						"extension": [
							{
								"url": "ombCategory",
								"valueCoding": {
									"code": "2054-5",
									"system": "urn:oid:2.16.840.1.113883.6.238",
									"display": "Black or African American",
									"userSelected": true
								}
							},
							{
								"url": "text",
								"valueString": "Black or African American"
							}
						],
						"url": "http://hl7.org/fhir/us/core/StructureDefinition/us-core-race"
					},
					{
						"extension": [
							{
								"url": "ombCategory",
								"valueCoding": {
									"code": "2186-5",
									"system": "urn:oid:2.16.840.1.113883.6.238",
									"display": "Not Hispanic or Latino",
									"userSelected": true
								}
							},
							{
								"url": "text",
								"valueString": "Not Hispanic or Latino"
							}
						],
						"url": "http://hl7.org/fhir/us/core/StructureDefinition/us-core-ethnicity"
					}
				],
				"gender": "female",
				"identifier": [
					{
						"type": {
							"coding": [
								{
									"code": "MR",
									"system": "http://terminology.hl7.org/CodeSystem/v2-0203"
								}
							]
						},
						"value": "2a65a26f9f7578ed1148174b365eff5a"
					}
				],
				"name": [
					{
						"family": "DENEXCEPPass",
						"given": [
							"PharmContraDayAftEncStart_NoEDNoObsBFEnc_RelePer"
						],
						"use": "usual"
					}
				]
			}
		},
		{
			"fullUrl": "http://clinfhir.com/fhir/Condition/ischemic-stroke-7f36",
			"resource": {
				"code": {
				  "coding": [
					{
					  "code": "111297002",
					  "display": "Nonparalytic stroke (disorder)",
					  "system": "http://snomed.info/sct",
					  "userSelected": true,
					  "version": "2020-09"
					}
				  ]
				},
				"subject": {
			    	"reference": "Patient/denexcep-EXM72-ContrRcvDayAfterIPstart"
			    },
				"id": "ischemic-stroke-7f36",
				"recordedDate": "2019-08-16T08:00:00.000+00:00",
				"resourceType": "Condition"
			}	
		},
		{
			"fullUrl": "http://clinfhir.com/fhir/Location/denexcep-EXM72-ContrRcvDayAfterIPstart-medReq",
			"resource": {
				"id": "denexcep-EXM72-ContrRcvDayAfterIPstart-MedAdm",
				"resourceType": "MedicationAdministration",
				"status": "completed",
				"medicationCodeableConcept": {
				  "coding": [
					{
						"code": "855812",
						"display": "prasugrel 10 MG Oral Tablet",
						"system": "http://www.nlm.nih.gov/research/umls/rxnorm"
					}
				  ]
				},
				"subject": {
				  "reference": "Patient/denexcep-EXM72-ContrRcvDayAfterIPstart"
				},
				"effectivePeriod": {
					"start": "2019-10-11T23:59:00+00:00"
				}
			}
		},
		{
			"fullUrl": "http://clinfhir.com/fhir/Encounter/denexcep-EXM72-ContrRcvDayAfterIPstart-610",
			"resource": {
				"resourceType": "Encounter",
				"id": "denexcep-EXM72-ContrRcvDayAfterIPstart-610",
				"subject": {
					"reference": "Patient/denexcep-EXM72-ContrRcvDayAfterIPstart"
				},
				"diagnosis": [
					{
						"rank": 1,
						"use": {
							"coding": [
								{
									"code": "111297002",
									"system": "http://snomed.info/sct",
									"display": "Ischemic Stroke"
								}
							]
						},
						"condition": {
							"reference": "Condition/ischemic-stroke-7f36"
						}
					}
				],
				"class": {
					"code": "IMP",
					"system": "http://terminology.hl7.org/CodeSystem/v3-ActCode",
					"display": "inpatient encounter",
					"userSelected": true
				},
				"status": "finished",
				"type": [
					{
						"coding": [
							{
								"code": "32485007",
								"system": "http://snomed.info/sct"
							}
						]
					}
				],
				"period": {
					"start": "2019-10-10T09:00:00+00:00",
					"end": "2019-10-12T11:15:00+00:00"
				},
				"length": {
					"value": 2,
					"unit": "days"
				}
			}
		}
	]
}