{
  "resourceType": "Bundle",
  "id": "tests-numer-EXM72-AntiThromStartDuringED-bundle",
  "type": "transaction",
  "entry": [ {
    "resource": {
      "resourceType": "Bundle",
      "id": "numer-EXM72-AntiThromStartDuringED-bundle",
      "type": "collection",
      "entry": [ {
        "fullUrl": "http://clinfhir.com/fhir/Patient/numer-EXM72-AntiThromStartDuringED",
        "resource": {
          "resourceType": "Patient",
          "id": "numer-EXM72-AntiThromStartDuringED",
          "extension": [ {
            "url": "http://hl7.org/fhir/us/core/StructureDefinition/us-core-race",
            "extension": [ {
              "url": "ombCategory",
              "valueCoding": {
                "system": "urn:oid:2.16.840.1.113883.6.238",
                "code": "2054-5",
                "display": "Black or African American",
                "userSelected": true
              }
            }, {
              "url": "text",
              "valueString": "Black or African American"
            } ]
          }, {
            "url": "http://hl7.org/fhir/us/core/StructureDefinition/us-core-ethnicity",
            "extension": [ {
              "url": "ombCategory",
              "valueCoding": {
                "system": "urn:oid:2.16.840.1.113883.6.238",
                "code": "2186-5",
                "display": "Not Hispanic or Latino",
                "userSelected": true
              }
            }, {
              "url": "text",
              "valueString": "Not Hispanic or Latino"
            } ]
          } ],
          "identifier": [ {
            "type": {
              "coding": [ {
                "system": "http://terminology.hl7.org/CodeSystem/v2-0203",
                "code": "MR"
              } ]
            },
            "value": "2a65a26f9f7578ed1148174b365eff5a"
          } ],
          "active": true,
          "name": [ {
            "use": "usual",
            "family": "NUMERPass",
            "given": [ "NUMPass_MedAntithromboticStart_eq0dayDuringEd" ]
          } ],
          "gender": "female",
          "birthDate": "1975-09-26"
        }
      }, {
        "fullUrl": "http://clinfhir.com/fhir/Condition/ischemic-stroke-7f36",
        "resource": {
          "resourceType": "Condition",
          "id": "ischemic-stroke-7f36",
          "code": {
            "coding": [ {
              "system": "http://snomed.info/sct",
              "version": "2020-09",
              "code": "111297002",
              "display": "Nonparalytic stroke (disorder)",
              "userSelected": true
            } ]
          },
          "subject": {
            "reference": "Patient/numer-EXM72-AntiThromStartDuringED"
          },
          "recordedDate": "2019-08-16T08:00:00.000+00:00"
        }
      }, {
        "fullUrl": "http://clinfhir.com/fhir/Location/numer-EXM72-AntiThromStartDuringED-medReq",
        "resource": {
          "resourceType": "MedicationAdministration",
          "id": "numer-EXM72-AntiThromStartDuringED-MedAdm",
          "status": "completed",
          "medicationCodeableConcept": {
            "coding": [ {
              "system": "http://www.nlm.nih.gov/research/umls/rxnorm",
              "code": "1037045"
            } ]
          },
          "subject": {
            "reference": "Patient/numer-EXM72-AntiThromStartDuringED"
          },
          "effectivePeriod": {
            "start": "2019-10-10T08:01:00+00:00",
            "end": "2019-10-10T08:45:00+00:00"
          }
        }
      }, {
        "fullUrl": "http://clinfhir.com/fhir/Encounter/numer-EXM72-AntiThromStartDuringED-6193",
        "resource": {
          "resourceType": "Encounter",
          "id": "numer-EXM72-AntiThromStartDuringED-EDvisit",
          "status": "finished",
          "class": {
            "system": "http://terminology.hl7.org/CodeSystem/v3-ActCode",
            "code": "IMP",
            "display": "inpatient encounter",
            "userSelected": true
          },
          "type": [ {
            "coding": [ {
              "system": "http://snomed.info/sct",
              "code": "4525004"
            } ]
          } ],
          "subject": {
            "reference": "Patient/numer-EXM72-AntiThromStartDuringED"
          },
          "period": {
            "start": "2019-10-10T08:00:00+00:00",
            "end": "2019-10-10T08:15:00+00:00"
          },
          "length": {
            "value": 0,
            "unit": "days"
          }
        }
      }, {
        "fullUrl": "http://clinfhir.com/fhir/Encounter/numer-EXM72-AntiThromStartDuringED-610",
        "resource": {
          "resourceType": "Encounter",
          "id": "numer-EXM72-AntiThromStartDuringED-610",
          "status": "finished",
          "class": {
            "system": "http://terminology.hl7.org/CodeSystem/v3-ActCode",
            "code": "IMP",
            "display": "inpatient encounter",
            "userSelected": true
          },
          "type": [ {
            "coding": [ {
              "system": "http://snomed.info/sct",
              "code": "32485007"
            } ]
          } ],
          "subject": {
            "reference": "Patient/numer-EXM72-AntiThromStartDuringED"
          },
          "period": {
            "start": "2019-10-10T09:00:00+00:00",
            "end": "2019-10-12T11:15:00+00:00"
          },
          "length": {
            "value": 2,
            "unit": "days"
          },
          "diagnosis": [ {
            "condition": {
              "reference": "Condition/ischemic-stroke-7f36"
            },
            "use": {
              "coding": [ {
                "system": "http://snomed.info/sct",
                "code": "111297002",
                "display": "Ischemic Stroke"
              } ]
            },
            "rank": 1
          } ]
        }
      } ]
    },
    "request": {
      "method": "PUT",
      "url": "Bundle/numer-EXM72-AntiThromStartDuringED-bundle"
    }
  } ]
}