{
	"resourceType": "Bundle",
	"type": "collection",
	"entry": [
		{
			"fullUrl": "http://clinfhir.com/fhir/Patient/denexcep-EXM190-1stICUlt1day",
			"resource": {
				"resourceType": "Patient",
				"id": "denexcep-EXM190-1stICUlt1day",
				"active": true,
				"birthDate": "1974-03-03",
				"extension": [
					{
						"extension": [
							{
								"url": "ombCategory",
								"valueCoding": {
									"code": "1002-5",
									"system": "urn:oid:2.16.840.1.113883.6.238",
									"display": "American Indian or Alaska Native",
									"userSelected": true
								}
							},
							{
								"url": "text",
								"valueString": "American Indian or Alaska Native"
							}
						],
						"url": "http://hl7.org/fhir/us/core/StructureDefinition/us-core-race"
					},
					{
						"extension": [
							{
								"url": "ombCategory",
								"valueCoding": {
									"code": "2135-2",
									"system": "urn:oid:2.16.840.1.113883.6.238",
									"display": "Hispanic or Latino",
									"userSelected": true
								}
							},
							{
								"url": "text",
								"valueString": "Hispanic or Latino"
							}
						],
						"url": "http://hl7.org/fhir/us/core/StructureDefinition/us-core-ethnicity"
					}
				],
				"gender": "female",
				"identifier": [
					{
						"type": {
							"coding": [
								{
									"code": "MR",
									"system": "http://terminology.hl7.org/CodeSystem/v2-0203"
								}
							]
						},
						"value": "2a65a26f9f7578ed1148174b365eff5a"
					}
				],
				"name": [
					{
						"family": "DENEXPass",
						"given": [
							"1LOSLT1DayICU_2ndICULOSGT1Day"
						],
						"use": "usual"
					}
				]
			}
		},
		{
			"fullUrl": "http://clinfhir.com/fhir/Condition/denexcep-EXM190-1stICUlt1day-54",
			"resource": {
				"resourceType": "Condition",
				"id": "denexcep-EXM190-1stICUlt1day-54",
				"subject": {
					"reference": "Patient/denexcep-EXM190-1stICUlt1day"
				}
			}
		},
		{
			"fullUrl": "http://clinfhir.com/fhir/Location/denexcep-EXM190-1stICUlt1day-57",
			"resource": {
				"resourceType": "Location",
				"id": "denexcep-EXM190-1stICUlt1day-57",
				"type": [
					{
						"coding": [
							{
								"code": "1025-6",
								"system": "http://terminology.hl7.org/CodeSystem/hsloc",
								"display": "Trauma Critical Care",
								"userSelected": true,
								"version": "2022"
							}
						]
					}
				],
				"partOf": {
					"reference": "Location/denexcep-EXM190-1stICUlt1day-58"
				}
			}
		},
		{
			"fullUrl": "http://clinfhir.com/fhir/Location/denexcep-EXM190-1stICUlt1day-58",
			"resource": {
				"resourceType": "Location",
				"id": "denexcep-EXM190-1stICUlt1day-58",
				"type": [
					{
						"coding": [
							{
								"code": "ETU",
								"system": "http://terminology.hl7.org/CodeSystem/v3-RoleCode",
								"display": "Emergency trauma unit"
							}
						]
					}
				]
			}
		},
		{
			"fullUrl": "http://clinfhir.com/fhir/Encounter/denexcep-EXM190-1stICUlt1day-610",
			"resource": {
				"resourceType": "Encounter",
				"id": "denexcep-EXM190-1stICUlt1day-610",
				"subject": {
					"reference": "Patient/denexcep-EXM190-1stICUlt1day"
				},
				"location": [
					{
						"location": {
							"reference": "Location/denexcep-EXM190-1stICUlt1day-57"
						},
						"status": "completed",
						"period": {
							"start": "2019-12-06T08:00:00.000+00:00",
							"end": "2019-12-06T09:15:00.000+00:00"
						}
					}
				],
				"diagnosis": [
					{
						"rank": 1,
						"use": {
							"coding": [
								{
									"code": "111297002",
									"system": "http://snomed.info/sct",
									"display": "Ischemic Stroke"
								}
							]
						},
						"condition": {
							"reference": "Condition/denexcep-EXM190-1stICUlt1day-54"
						}
					}
				],
				"class": {
					"code": "IMP",
					"system": "http://terminology.hl7.org/CodeSystem/v3-ActCode",
					"display": "inpatient encounter",
					"userSelected": true
				},
				"status": "finished",
				"type": [
					{
						"coding": [
							{
								"code": "8715000",
								"system": "http://snomed.info/sct"
							}
						]
					}
				],
				"period": {
					"start": "2019-12-04T08:00:00+00:00",
					"end": "2019-12-30T08:15:00+00:00"
				},
				"length": {
					"value": 26,
					"unit": "days"
				}
			}
		}
	]
}