{
	"resourceType": "Bundle",
	"type": "collection",
	"entry": [
{
			"fullUrl": "http://clinfhir.com/fhir/Patient/numer-EXM190-IPCOnICUStart",
			"resource": {
				"resourceType": "Patient",
				"id": "numer-EXM190-IPCOnICUStart",
				"active": true,
				"birthDate": "1974-03-03",
				"extension": [
					{
						"extension": [
							{
								"url": "ombCategory",
								"valueCoding": {
									"code": "1002-5",
									"system": "urn:oid:2.16.840.1.113883.6.238",
									"display": "American Indian or Alaska Native",
									"userSelected": true
								}
							},
							{
								"url": "text",
								"valueString": "American Indian or Alaska Native"
							}
						],
						"url": "http://hl7.org/fhir/us/core/StructureDefinition/us-core-race"
					},
					{
						"extension": [
							{
								"url": "ombCategory",
								"valueCoding": {
									"code": "2135-2",
									"system": "urn:oid:2.16.840.1.113883.6.238",
									"display": "Hispanic or Latino",
									"userSelected": true
								}
							},
							{
								"url": "text",
								"valueString": "Hispanic or Latino"
							}
						],
						"url": "http://hl7.org/fhir/us/core/StructureDefinition/us-core-ethnicity"
					}
				],
				"gender": "female",
				"identifier": [
					{
						"type": {
							"coding": [
								{
									"code": "MR",
									"system": "http://terminology.hl7.org/CodeSystem/v2-0203"
								}
							]
						},
						"value": "2a65a26f9f7578ed1148174b365eff5a"
					}
				],
				"name": [
					{
						"family": "NUMERPass",
						"given": [
							"numer-EXM190-IPCOnICUStart"
						],
						"use": "usual"
					}
				]
			}
		},

{
			"fullUrl": "http://clinfhir.com/fhir/Encounter/numer-EXM190-IPCOnICUStartEnc7",
			"resource": {
				"resourceType": "Encounter",
				"id": "numer-EXM190-IPCOnICUStartEnc7",
				"subject": {
					"reference": "Patient/numer-EXM190-IPCOnICUStart"
				},
				"location": [
					{
						"location": {
							"reference": "Location/numer-EXM190-IPCOnICUStartLoc4"
						},
						"status": "completed",
						"period": {
							"start": "2019-12-06T08:00:00.000+00:00",
							"end": "2019-12-08T08:15:00.000+00:00"
						}
					}
				],
	
				"diagnosis": [
					{
						"rank": 1,
						"use": {
							"coding": [
								{
									"code": "111297002",
									"system": "http://snomed.info/sct",
									"display": "Nonparalytic stroke (disorder)"
								}
							]
						},
						"condition": {
							"reference": "Condition/numer-EXM190-IPCOnICUStartCon10"
						}
					}
				],

				"class": {
					"code": "IMP",
					"system": "http://terminology.hl7.org/CodeSystem/v3-ActCode",
					"display": "Encounter Inpatient",
					"userSelected": true
				},
				"status": "finished",
				"type": [
					{
						"coding": [
							{
								"code": "8715000",
								"system": "http://snomed.info/sct"
							}
						]
					}
				],
				"period": {
					"start": "2019-12-04T08:00:00+00:00",
					"end": "2019-12-30T08:15:00+00:00"
				},
				"length": {
					"value": 26,
					"unit": "days"
				}
			}
		},

{
			"fullUrl": "http://clinfhir.com/fhir/Location/numer-EXM190-IPCOnICUStartLoc4",
			"resource": {
				"resourceType": "Location",
				"id": "numer-EXM190-IPCOnICUStartLoc4",
				"type": [
					{
						"coding": [
							{
								"code": "1025-6",
								"system": "http://terminology.hl7.org/CodeSystem/hsloc",
								"display": "Trauma Critical Care"
								
							}
						]
					}
				]
			}
		},

{
			"fullUrl": "http://clinfhir.com/fhir/Condition/numer-EXM190-IPCOnICUStartCon10",
			"resource": {
				"code": {
				  "coding": [
					{
					  "code": "111297002",
					  "display": "Nonparalytic stroke (disorder)",
					  "system": "http://snomed.info/sct"
					}
				  ]
				},
				"subject": {
			    	"reference": "Patient/numer-EXM190-IPCOnICUStart"
			    },
				"id": "numer-EXM190-IPCOnICUStartCon10",
				"recordedDate": "2019-07-15T08:00:00.000+00:00",
				"resourceType": "Condition"
			}	
		},

{
			"fullUrl": "http://clinfhir.com/fhir/Procedure/numer-EXM190-IPCOnICUStartPro9",
			"resource": {
				"resourceType": "Procedure",
				"id": "numer-EXM190-IPCOnICUStartPro9",
				"subject": {
					"reference": "Patient/numer-EXM190-IPCOnICUStart"
				},
				"code": {
					"coding": [
						{
							"code": "360030002",
							"system": "http://snomed.info/sct"
						}
					]
				},
				"performedDateTime": "2019-12-06T08:00:00.000+00:00",
				"status": "completed",
				"usedCode": [
					{
						"coding": [
							{
								"code": "428411000124104",
								"system": "http://snomed.info/sct"				
							}
						]
					}
				]
			}
		}

]
}


